sep=									
DeviceTag:	Xsens_4								
FirmwareVersion:	2.2.1								
AppVersion:	2023.0.0								
SyncStatus:	Un-synced								
OutputRate:	60Hz								
FilterProfile:	General								
Measurement Mode:	Sensor fusion Mode - Extended (Quaternion)								
StartTime:	2023-07-11 15:21:33.862 +0200								
© Movella Technologies B. V. 2005-2023									
PacketCounter	SampleTimeFine	Quat_W	Quat_X	Quat_Y	Quat_Z	FreeAcc_X	FreeAcc_Y	FreeAcc_Z	Status
1	217069164	0	-4.21E-17	-0.707106781	-0.707106781	-0.00196873	0.42866707	0.009085498	0
2	217085831	1.42E-05	0.000207431	-0.707262523	-0.706950975	-5.75E-05	0.452710066	-0.000571819	0
3	217102498	1.77E-05	-0.000423131	0.707397459	0.706815857	-0.00786384	0.423688898	0.005452096	0
4	217119165	4.33E-05	0.000491081	-0.707526513	-0.706686628	0.010981914	0.42505235	-0.019056671	0
5	217135832	5.53E-05	0.000635069	-0.707591999	-0.706620942	-0.002661715	0.429343803	-0.015053788	0
6	217152499	8.95E-05	0.000732056	-0.707656347	-0.706556403	-0.005462714	0.42517719	-0.018769302	0
7	217169166	7.07E-05	0.00084399	-0.707723453	-0.706489064	-0.004068331	0.437398168	-0.001426101	0
8	217185833	7.21E-05	0.000952607	-0.707795104	-0.706417142	0.010331053	0.409378359	-0.010622638	0
9	217202500	0.000121973	0.001026486	-0.707871248	-0.706340731	-0.008401712	0.415519006	-0.027277749	0
10	217219167	0.000166469	0.001112509	-0.707938435	-0.706273252	-0.002795792	0.434658006	-0.020572464	0
11	217235834	0.000194608	0.001197548	-0.708009798	-0.706201567	0.003299731	0.448924144	-0.025992962	0
12	217252501	0.000231818	0.001256507	-0.708077572	-0.7061335	-0.001211458	0.427796097	-0.026572274	0
13	217269168	0.000267207	0.00135244	-0.708142206	-0.706068492	8.98E-05	0.439521227	-0.040658339	0
14	217285835	0.000291193	0.001438276	-0.708202709	-0.706007627	-0.015922551	0.433084487	-0.031236313	0
15	217302502	0.000301448	0.001532728	-0.708267234	-0.705942692	-0.023073022	0.445313312	-0.037276546	0
16	217319169	0.000333169	0.001617042	-0.708332286	-0.705877218	-0.00023715	0.441789246	-0.040061747	0
17	217335836	0.000355489	0.001688917	-0.708401736	-0.70580734	0.003449443	0.431188731	-0.043314008	0
18	217352503	0.000376484	0.001766745	-0.708470681	-0.705737934	-0.011038813	0.445685986	-0.040067264	0
19	217369170	0.000385447	0.001854624	-0.708541638	-0.705666464	-0.012639138	0.456993543	-0.044400115	0
20	217385837	0.000396483	0.001936646	-0.708613126	-0.705594451	-0.011468764	0.424977891	-0.040549037	0
21	217402504	0.000421745	0.00202491	-0.708685393	-0.705521605	-0.015323663	0.437055181	-0.051952798	0
22	217419171	0.000445538	0.002102996	-0.708760468	-0.705445942	-0.011926446	0.447491588	-0.054727592	0
23	217435838	0.000467336	0.002185165	-0.708828683	-0.705377136	-0.006053099	0.423416389	-0.072258213	0
24	217452505	0.000496923	0.002255529	-0.708898414	-0.705306816	-0.0134228	0.442376921	-0.059385284	0
25	217469172	0.000525277	0.002336024	-0.708964004	-0.705240603	-0.018622596	0.437996191	-0.055423094	0
26	217485839	0.000533425	0.002420578	-0.709038471	-0.705165444	-0.0079225	0.419960198	-0.062321321	0
27	217502506	0.000553326	0.002495753	-0.709109703	-0.705093536	-0.008262519	0.449605871	-0.069655109	0
28	217519173	0.000591004	0.002572137	-0.709177333	-0.705025209	-0.012003816	0.444287793	-0.067226652	0
29	217535840	0.000602442	0.002661434	-0.709240903	-0.704960918	-0.019771224	0.43862451	-0.077586784	0
30	217552507	0.000638551	0.002741333	-0.709313805	-0.704887227	-0.007915489	0.432653468	-0.074412065	0
31	217569174	0.000670743	0.002817658	-0.70937612	-0.704824185	-0.026006411	0.448696918	-0.068236769	0
32	217585841	0.000681525	0.002909323	-0.709449442	-0.704749998	-0.007059097	0.426585292	-0.074726999	0
33	217602508	0.000705531	0.002986833	-0.709521306	-0.7046773	-0.010575785	0.443772388	-0.08411616	0
34	217619175	0.000725281	0.00306393	-0.709593017	-0.704604738	-0.012809564	0.413030902	-0.072996756	0
35	217635842	0.000763131	0.003145504	-0.709666576	-0.70453025	-0.013108812	0.420105521	-0.072654048	0
36	217652509	0.000787239	0.003215538	-0.709736122	-0.704459848	-0.021045503	0.432295393	-0.084186572	0
37	217669176	0.000810776	0.003303643	-0.709810164	-0.70438481	-0.018215849	0.441461717	-0.088597148	0
38	217685843	0.00083357	0.003390516	-0.709879968	-0.704314021	-0.023701777	0.439894867	-0.09641754	0
39	217702510	0.000866987	0.003464156	-0.709946153	-0.704246908	-0.025233831	0.443421987	-0.101026431	0
40	217719177	0.000889966	0.003548989	-0.710019781	-0.704172226	-0.00795704	0.430799641	-0.084762706	0
41	217735844	0.0009185	0.00363383	-0.710088328	-0.704102633	-0.011821006	0.447631676	-0.113790227	0
42	217752511	0.000944644	0.003725439	-0.710150126	-0.704039791	-0.013629322	0.443261169	-0.100576817	0
43	217769178	0.000962882	0.003804313	-0.710212803	-0.703976118	-0.02294802	0.435168167	-0.097110041	0
44	217785845	0.000992336	0.003889385	-0.710280501	-0.703907308	-0.018875191	0.455494235	-0.111481162	0
45	217802512	0.001021721	0.003961469	-0.71035126	-0.703835457	-0.013953306	0.445937605	-0.108813061	0
46	217819179	0.001046273	0.004045321	-0.710420595	-0.70376496	-0.022581793	0.419662613	-0.106548496	0
47	217835846	0.001075658	0.004126302	-0.710483018	-0.703701427	-0.018891627	0.432821931	-0.113404795	0
48	217852513	0.001098648	0.004209632	-0.71055201	-0.703631233	-0.022672269	0.434469222	-0.10865409	0
49	217869180	0.001121808	0.004287991	-0.71062191	-0.703560129	-0.01739472	0.439192564	-0.127525489	0
50	217885847	0.001148789	0.0043589	-0.710685084	-0.703495836	-0.029909238	0.43544858	-0.119580806	0
51	217902514	0.001182889	0.004431915	-0.710747904	-0.703431856	-0.024423923	0.428008391	-0.131998776	0
52	217919181	0.0012078	0.004512925	-0.710821232	-0.7033572	-0.020292818	0.427072413	-0.120088831	0
53	217935848	0.001232708	0.00459179	-0.710888537	-0.703288621	-0.028917494	0.442434709	-0.135539689	0
54	217952515	0.001258454	0.004670802	-0.710957397	-0.703218444	-0.008299825	0.456747575	-0.143765127	0
55	217969182	0.001283004	0.00474963	-0.711025783	-0.703148726	-0.027678914	0.455101104	-0.133547507	0
56	217985849	0.001305262	0.004837831	-0.711096378	-0.703076691	-0.023954096	0.42311166	-0.136742306	0
57	218002516	0.001339799	0.004908806	-0.711165931	-0.70300578	-0.033385524	0.411040417	-0.156863314	0
58	218019183	0.00136154	0.00499095	-0.711230845	-0.702939486	-0.021297509	0.41716971	-0.148737659	0
59	218035850	0.001392694	0.005077742	-0.711299415	-0.702869418	-0.037636836	0.454331911	-0.15350101	0
60	218052517	0.001423991	0.005147783	-0.71136134	-0.702806173	-0.034835819	0.433690549	-0.151713731	0
61	218069184	0.001446223	0.005226364	-0.711426628	-0.702739458	-0.019279857	0.411671864	-0.14589292	0
62	218085851	0.001456433	0.005298599	-0.711494312	-0.702670369	-0.015301695	0.43240726	-0.155150421	0
63	218102518	0.001478326	0.005371187	-0.711566644	-0.702596524	-0.024159943	0.424687472	-0.170899049	0
64	218119185	0.001493022	0.005464658	-0.711628736	-0.702532882	-0.018893909	0.424658229	-0.159988589	0
65	218135852	0.00152424	0.005544773	-0.711686135	-0.70247404	-0.017670791	0.440392832	-0.169756445	0
66	218152519	0.001545078	0.005609292	-0.711755198	-0.702403507	-0.020692785	0.446298719	-0.158409079	0
67	218169186	0.001562817	0.005694913	-0.711819116	-0.702338004	-0.025562257	0.422697792	-0.168259213	0
68	218185853	0.001571347	0.00577898	-0.711880542	-0.702275038	-0.022376955	0.448604987	-0.173295042	0
69	218202520	0.001596382	0.005865638	-0.711941887	-0.702212073	-0.022685472	0.432728675	-0.169421262	0
70	218219187	0.001633668	0.005932624	-0.712003731	-0.702148718	-0.02041524	0.429009401	-0.17543424	0
71	218235854	0.001664236	0.00601918	-0.712059477	-0.702091376	-0.022829329	0.406223977	-0.174288415	0
72	218252521	0.00170228	0.006099732	-0.712113136	-0.702036165	-0.028591214	0.431430543	-0.187248312	0
73	218269188	0.001710509	0.006172056	-0.712161585	-0.701986365	-0.021808671	0.419594287	-0.177527005	0
74	218285855	0.001732006	0.006244991	-0.712223972	-0.70192237	-0.017245808	0.412824447	-0.175686077	0
75	218302522	0.001755568	0.006321355	-0.712286	-0.701858684	-0.032516987	0.430949634	-0.174477918	0
76	218319189	0.001776558	0.006405504	-0.712346487	-0.701796478	-0.026380055	0.445454588	-0.187790485	0
77	218335856	0.001794409	0.006485846	-0.712403825	-0.701737489	-0.031047028	0.435619277	-0.200633693	0
78	218352523	0.001809777	0.006556025	-0.712462907	-0.701676812	-0.036510692	0.424680598	-0.190484622	0
79	218369190	0.001818433	0.006628095	-0.712522651	-0.701615446	-0.03368065	0.432130919	-0.200954571	0
80	218385857	0.001840426	0.00669867	-0.712573392	-0.701563184	-0.038169921	0.414573239	-0.196417146	0
81	218402524	0.001852963	0.006771226	-0.712635518	-0.701499348	-0.045179298	0.44098481	-0.204697951	0
82	218419191	0.001871112	0.0068505	-0.712686243	-0.701446996	-0.032352837	0.423206866	-0.199410197	0
83	218435858	0.001880834	0.006909304	-0.712736191	-0.701395642	-0.040930764	0.425375435	-0.203959809	0
84	218452525	0.00189438	0.006978016	-0.712793012	-0.70133718	-0.029867597	0.404108809	-0.196916716	0
85	218469192	0.001910092	0.007045632	-0.712839874	-0.701288831	-0.03077741	0.419743002	-0.197354086	0
86	218485859	0.001939231	0.007118263	-0.712893379	-0.701233628	-0.040120829	0.448708346	-0.205815093	0
87	218502526	0.001946977	0.007183797	-0.712946138	-0.701179297	-0.027214563	0.431960516	-0.210554733	0
88	218519193	0.001953269	0.00725266	-0.712999447	-0.701124363	-0.031272417	0.436392315	-0.209698492	0
89	218535860	0.001970558	0.007326159	-0.713051558	-0.701070553	-0.031941372	0.414045622	-0.206309546	0
90	218552527	0.001982661	0.007394094	-0.713103488	-0.701016984	-0.028433613	0.410285734	-0.217960641	0
91	218569194	0.001984118	0.007464759	-0.713148037	-0.700970911	-0.035492234	0.427440861	-0.227762531	0
92	218585861	0.00199301	0.007529769	-0.713199364	-0.700917968	-0.043674353	0.432272927	-0.211019877	0
93	218602528	0.001997652	0.007598704	-0.713247781	-0.700867942	-0.041614841	0.421726262	-0.220439934	0
94	218619195	0.002016763	0.007659574	-0.713285559	-0.700828777	-0.026627286	0.445716606	-0.216025143	0
95	218635862	0.002030372	0.007727785	-0.713326456	-0.700786362	-0.051523331	0.441536864	-0.228062336	0
96	218652529	0.002038828	0.00779771	-0.713368165	-0.700743105	-0.045608376	0.426631943	-0.23914381	0
97	218669196	0.002049131	0.007864307	-0.713410309	-0.700699425	-0.051544427	0.435854147	-0.213992723	0
98	218685863	0.002061984	0.007924112	-0.713451179	-0.7006571	-0.046637614	0.446293749	-0.221088222	0
99	218702530	0.002073927	0.00797506	-0.713500546	-0.700606215	-0.045705037	0.437239122	-0.233115204	0
100	218719197	0.002090002	0.008046777	-0.713549689	-0.700555296	-0.048906815	0.433647087	-0.231570547	0
101	218735864	0.002106254	0.008110025	-0.713593614	-0.700509775	-0.035774356	0.424312931	-0.243440805	0
102	218752531	0.002114992	0.00816779	-0.713629297	-0.700472726	-0.039206501	0.408798212	-0.235198763	0
103	218769198	0.002122565	0.008232551	-0.71366946	-0.700431026	-0.044139482	0.442992342	-0.228158453	0
104	218785865	0.002131802	0.008295057	-0.713706532	-0.700392486	-0.040063086	0.438051631	-0.231058472	0
105	218802532	0.002134476	0.008353262	-0.713747903	-0.700349626	-0.030341269	0.40387649	-0.240895392	0
106	218819199	0.002144287	0.008417547	-0.713786659	-0.700309326	-0.036036888	0.428947661	-0.234601726	0
107	218835866	0.00215022	0.008490863	-0.713830264	-0.700263976	-0.049476162	0.460882215	-0.242596948	0
108	218852533	0.002149643	0.008565443	-0.713874335	-0.700218142	-0.051745094	0.440743234	-0.247394115	0
109	218869200	0.002149717	0.00863235	-0.713910949	-0.70017999	-0.053961582	0.400259934	-0.234880706	0
110	218885867	0.002146851	0.008678121	-0.713950103	-0.700139508	-0.04685641	0.431056514	-0.237282859	0
111	218902534	0.002148311	0.008736683	-0.713987728	-0.700100407	-0.046207982	0.443176769	-0.246696118	0
112	218919201	0.002150413	0.008797019	-0.714017215	-0.700069572	-0.047009044	0.426420549	-0.240352783	0
113	218935868	0.002147838	0.008855689	-0.71404847	-0.700036961	-0.049172293	0.417353102	-0.242484351	0
114	218952535	0.002150905	0.008927554	-0.714086455	-0.699997291	-0.030563325	0.426791211	-0.255179495	0
115	218969202	0.002146995	0.00898558	-0.71412952	-0.699952625	-0.051858753	0.426193973	-0.264758476	0
116	218985869	0.002147089	0.009026615	-0.714164818	-0.699916083	-0.051027076	0.447772714	-0.260030117	0
117	219002536	0.00213861	0.00908534	-0.714194649	-0.699884909	-0.058028131	0.411355801	-0.261531731	0
118	219019203	0.002140846	0.009132869	-0.71422458	-0.69985374	-0.044914711	0.420540915	-0.254253179	0
119	219035870	0.002248915	-0.002232647	0.707279643	0.706926774	0.001350982	0.427751765	-0.004341549	0
120	219052537	0.002237729	-0.00222162	0.707275162	0.706931327	0.006152338	0.43721705	-0.005365688	0
121	219069204	0.002221945	-0.002219849	0.707278159	0.706928385	-0.002353857	0.426024907	0.010936635	0
122	219085871	0.002219036	-0.002218407	0.707278912	0.706927645	-0.001914731	0.45569601	0.003110919	0
123	219102538	0.002214879	-0.002211197	0.707279861	0.706926731	-0.005482455	0.422360223	0.004159466	0
124	219119205	0.002207606	-0.002199508	0.707274431	0.706932223	0.002171061	0.42942737	-0.003337244	0
125	219135872	0.002201026	-0.002199346	0.707270992	0.706935685	-0.00591783	0.44930147	0.001155888	0
126	219152539	0.002200004	-0.002189988	0.707267524	0.706939187	-0.003904753	0.435600692	-0.008851531	0
127	219169206	0.002200157	-0.00218453	0.707265093	0.706941635	-0.006458546	0.420767707	0.007621228	0
128	219185873	0.002184069	-0.002175328	0.707264156	0.706942651	-0.00428473	0.427482748	0.002497496	0
129	219202540	0.002185034	-0.002162957	0.70725921	0.706947634	0.00599959	0.435257806	0.005766951	0
130	219219207	0.00217857	-0.002159072	0.707261276	0.706945599	-0.005873118	0.4399056	-0.001043211	0
131	219235874	0.002164244	-0.002151061	0.707261748	0.706945195	-0.001487601	0.428762565	-0.00305044	0
132	219252541	0.00216131	-0.002146328	0.707260129	0.706946839	-0.007419213	0.449414556	0.006972723	0
133	219269208	0.002148075	-0.002143592	0.707258536	0.706948481	-0.007777976	0.4480807	0.003608189	0
134	219285875	0.002142635	-0.002141177	0.707255795	0.706951247	0.009850738	0.411392039	0.013938324	0
135	219302542	0.002137198	-0.002134484	0.707252591	0.706954489	-0.008959456	0.433590737	0.000917015	0
136	219319209	0.002145658	-0.002124258	0.707241269	0.70696582	-0.008794948	0.43976467	0.010459299	0
137	219335876	0.002145102	-0.002122994	0.707240206	0.706966889	0.005643636	0.425989644	0.00488544	0
138	219352543	0.002145685	-0.002109801	0.707228471	0.706978667	-0.006210888	0.44187786	-0.005243975	0
139	219369210	0.002138767	-0.002110104	0.707227163	0.706979995	-0.00388607	0.446739808	0.000523232	0
140	219385877	0.00212907	-0.002103467	0.707221992	0.706985217	-0.002749205	0.430639995	-0.007094933	0
141	219402544	0.002116544	-0.002099175	0.707226612	0.706980646	-0.005957864	0.414316085	0.004563441	0
142	219419211	0.00211008	-0.002088792	0.707224988	0.70698232	0.006449374	0.411262698	0.010066494	0
143	219435878	0.002104593	-0.002082539	0.707215522	0.706991824	0.007603443	0.421980894	0.001267556	0
144	219452545	0.002091792	-0.002078032	0.707219845	0.706987551	-0.005641289	0.430596423	0.015496008	0
145	219469212	0.002089926	-0.002059184	0.707214843	0.706992615	-0.000593201	0.443371524	0.002724561	0
146	219485879	0.002081136	-0.002063131	0.707212814	0.706994659	-0.001823843	0.443849013	-0.002132667	0
147	219502546	0.002079646	-0.002055265	0.707210262	0.70699724	-0.002732685	0.433132019	0.009270939	0
148	219519213	0.002071634	-0.002038997	0.707209393	0.706998179	0.005266876	0.436702276	-0.005117297	0
149	219535880	0.00206673	-0.002034941	0.707209946	0.706997652	-0.003702478	0.411374961	0.009779591	0
150	219552547	0.002062106	-0.00203358	0.707213996	0.706993618	-0.00031372	0.451995723	-0.000501249	0
151	219569214	0.002054858	-0.002040374	0.707212906	0.70699471	-0.01831842	0.452049802	-0.008028109	0
152	219585881	0.002052043	-0.002036559	0.707203877	0.707003761	-0.013959671	0.418724278	-0.004228711	0
153	219602548	0.002042438	-0.002026901	0.707201594	0.7070061	0.004944963	0.48123923	0.015943149	0
154	219619215	0.002007871	-0.002045433	0.707205764	0.707001974	-0.018338862	0.407915063	-0.006921896	0
155	219635882	0.00202019	-0.002013438	0.707204283	0.707003513	0.002528058	0.417436573	-0.005589826	0
156	219652549	0.002015208	-0.001993172	0.707202562	0.707005306	0.00917557	0.456100688	0.006803852	0
157	219669216	0.001995597	-0.002007686	0.707204496	0.707003386	-0.000863443	0.418397431	0.005631954	0
158	219685883	0.001996501	-0.001988159	0.707200672	0.707007264	0.001316579	0.420484038	0.006382197	0
159	219702550	0.001981339	-0.001975517	0.707200617	0.707007397	-0.009091699	0.437779769	0.014380761	0
160	219719217	0.001976712	-0.001966837	0.70719022	0.707017834	-0.013877342	0.424351957	0.000485162	0
161	219735884	0.001979555	-0.001969176	0.707185699	0.707022341	-0.00664735	0.448765653	0.00601551	0
162	219752551	0.001987525	-0.001950748	0.707189906	0.707018162	-0.001094427	0.467189751	-0.007026357	0
163	219769218	0.001979692	-0.001954136	0.707189877	0.707018204	-0.010128893	0.416436944	0.004272296	0
164	219785885	0.001979702	-0.001956178	0.707191449	0.707016626	-0.001119236	0.436750887	0.019580642	0
165	219802552	0.001961499	-0.001959101	0.707197902	0.707010214	-0.005795329	0.465174998	-0.009788424	0
166	219819219	0.001950076	-0.001950729	0.707205029	0.707003139	-4.05E-05	0.41646317	-0.001796581	0
167	219835886	0.001942691	-0.001942366	0.707205751	0.70700246	0.006936358	0.444744895	-0.01763644	0
168	219852553	0.001943447	-0.001938599	0.707206412	0.707001808	-0.001832539	0.441176053	0.007022426	0
169	219869220	0.001942414	-0.001938062	0.707202922	0.707005303	0.002172711	0.41823832	0.003106886	0
170	219885887	0.00193842	-0.001931129	0.707204962	0.707003292	0.004140434	0.436143746	0.011531481	0
171	219902554	0.001930332	-0.00192702	0.707207689	0.707000597	0.002042175	0.44966313	-0.003300002	0
172	219919221	0.001918797	-0.00192184	0.707206199	0.707002133	-0.00812577	0.440201545	0.004422569	0
173	219935888	0.001920636	-0.00191487	0.707200118	0.70700823	-0.001342654	0.441804537	-0.003358091	0
174	219952555	0.001904374	-0.001921722	0.707199896	0.707008478	-0.010293146	0.437505335	0.004171237	0
175	219969222	0.001892367	-0.001922971	0.707198539	0.707009864	-0.016122006	0.418659125	-0.001022525	0
176	219985889	0.00188989	-0.001919929	0.707201411	0.707007006	0.002225593	0.467991695	0.003831956	0
177	220002556	0.001879862	-0.001910189	0.70720028	0.70700819	0.001659476	0.449521297	0.000617055	0
178	220019223	0.001870476	-0.001919306	0.707198803	0.707009668	-0.015040769	0.419145037	0.014066879	0
179	220035890	0.001872995	-0.001921008	0.707201433	0.707007026	0.002180477	0.448903647	0.003992586	0
180	220052557	0.001862162	-0.001917584	0.707196641	0.707011857	-0.014997462	0.423820897	0.006519705	0
181	220069224	0.001862449	-0.00191703	0.707199636	0.707008862	-0.006944217	0.433185189	0.000934052	0
182	220085891	0.001857634	-0.001914306	0.707199505	0.707009014	0.001819312	0.426412988	0.000523674	0
183	220102558	0.001843934	-0.001919038	0.707201608	0.707006933	0.000242963	0.433526018	-0.000513051	0
184	220119225	0.001842062	-0.001914518	0.707200911	0.707007647	0.016506378	0.465461753	-0.003502839	0
185	220135892	0.001833754	-0.001909572	0.707202135	0.707006458	0.012040891	0.44010065	-0.005292922	0
186	220152559	0.001834121	-0.001904382	0.707202366	0.707006239	-0.004828451	0.454147906	0.007872935	0
187	220169226	0.001831487	-0.00189262	0.707202936	0.707005708	0.004066635	0.448917987	-0.000534956	0
188	220185893	0.001827637	-0.001893484	0.707197649	0.707011004	0.001914275	0.447127197	-0.007960649	0
189	220202560	0.001823967	-0.001884284	0.707190842	0.707017847	-0.00695416	0.440034598	0.007825767	0
190	220219227	0.001821699	-0.001876438	0.707191197	0.707017518	0.001433905	0.417234416	0.012696439	0
191	220235894	0.001821664	-0.001886995	0.707184433	0.707024256	0.003647941	0.434725609	0.010106909	0
192	220252561	0.001819976	-0.001874889	0.707188143	0.707020582	-0.01165626	0.438524422	-0.005573628	0
193	220269228	0.001817708	-0.00187238	0.707181205	0.707027533	-0.011392882	0.444144254	0.008129672	0
194	220285895	0.001813513	-0.001877266	0.70717997	0.707028767	-0.002182032	0.404140386	-0.002404429	0
195	220302562	0.001811768	-0.001867387	0.707176511	0.707032257	-0.00684209	0.429584397	-0.001605678	0
196	220319229	0.001819357	-0.001862796	0.707174522	0.707034239	-0.007184832	0.448941411	0.007132608	0
197	220335896	0.001817297	-0.001860728	0.70717085	0.707037923	-0.002569672	0.41942884	0.010119553	0
198	220352563	0.001822854	-0.001850993	0.707166322	0.707042463	0.005903161	0.416392475	0.007209405	0
199	220369230	0.001826471	-0.001856684	0.707171068	0.707037692	0.002721659	0.436190073	0.013619117	0
200	220385897	0.001823827	-0.001853629	0.707175561	0.707033212	-0.000833435	0.431905213	-0.016578705	0
201	220402564	0.001818707	-0.001843766	0.707183097	0.707025713	0.009654342	0.416105378	0.00302279	0
202	220419231	0.001811478	-0.001829155	0.707182698	0.707026169	-0.022043574	0.429905503	-0.00146311	0
203	220435898	0.001810223	-0.001826795	0.707179197	0.707029681	0.008736299	0.433260959	0.006416263	0
204	220452565	0.001810072	-0.001825757	0.707177084	0.707031797	0.014170165	0.426841259	0.004381728	0
205	220469232	0.001795953	-0.001824324	0.707178533	0.707030387	-0.000143506	0.431268622	-0.009472817	0
206	220485899	0.001794882	-0.001831254	0.707177633	0.707031272	-0.003133853	0.436663676	0.005286736	0
207	220502566	0.001783236	-0.001827523	0.707177179	0.707031766	0.003928312	0.445043243	0.008420012	0
208	220519233	0.0017708	-0.001826405	0.707180019	0.707028959	-0.004449971	0.431672527	0.006153491	0
209	220535900	0.001765877	-0.001824935	0.707179528	0.707029466	-0.004159014	0.451515344	0.006402389	0
210	220552567	0.001765299	-0.001819861	0.707183495	0.707025513	-0.004729678	0.453520906	0.006130494	0
211	220569234	0.001764964	-0.001820387	0.707179202	0.707029807	-0.001336109	0.414411933	-0.001540239	0
212	220585901	0.001759181	-0.001821832	0.707181999	0.707027019	-0.006729782	0.454331759	0.007650582	0
213	220602568	0.001755322	-0.001819706	0.707187483	0.707021549	-0.006876051	0.440157892	-0.005228249	0
214	220619235	0.001742217	-0.001810243	0.707193219	0.707015868	0.004874764	0.427629999	0.002679819	0
215	220635902	0.001746951	-0.001820579	0.707188086	0.707020964	-0.012435879	0.429186731	-0.000496302	0
216	220652569	0.001738325	-0.001813136	0.707186833	0.707022259	0.005739324	0.437302158	0.012897432	0
217	220669236	0.001737943	-0.001816106	0.707185173	0.707023912	-0.00810412	0.445476775	0.004467836	0
218	220685903	0.001731448	-0.001815183	0.707188218	0.707020885	0.009570797	0.419494191	0.001338478	0
219	220702570	0.001728294	-0.001812278	0.707191425	0.707017692	0.006184407	0.437934502	0.008504337	0
220	220719237	0.001726301	-0.001810686	0.707192002	0.707017124	-0.001871394	0.440347021	0.007015212	0
221	220735904	0.001722374	-0.001818766	0.707193445	0.707015669	-0.00062324	0.450172607	0.001580897	0
222	220752571	0.001710867	-0.001814039	0.707197485	0.707011668	4.25E-06	0.437821978	0.016012645	0
223	220769238	0.00170747	-0.00180541	0.707200337	0.707008846	-0.00219427	0.444336641	-0.00737236	0
224	220785905	0.001709348	-0.001801682	0.707200566	0.707008622	-0.002694618	0.433028948	0.013317334	0
225	220802572	0.001714905	-0.001797443	0.707190837	0.707018351	0.009212467	0.425086884	0.007372458	0
226	220819239	0.00171846	-0.00179278	0.707188952	0.707020239	0.00322858	0.442742707	0.013046307	0
227	220835906	0.001703254	-0.001790728	0.707188897	0.707020336	-0.015808281	0.465010268	-0.008441581	0
228	220852573	0.001701631	-0.001788707	0.707195452	0.707013788	-0.014814486	0.410753008	0.005706264	0
229	220869240	0.001700942	-0.001794556	0.70719594	0.707013287	-0.003086129	0.441554627	0.01085982	0
230	220885907	0.001702276	-0.001797666	0.707198553	0.707010662	-0.005037756	0.441284411	0.004728729	0
231	220902574	0.001701809	-0.001799778	0.70719781	0.707011402	-0.003384007	0.417132601	-0.003445733	0
232	220919241	0.001701665	-0.001806589	0.707195445	0.70701375	0.005659992	0.440482942	-0.002217586	0
233	220935908	0.001709016	-0.001799608	0.707198196	0.707010998	-0.017109574	0.442524853	0.000901434	0
234	220952575	0.001707418	-0.001797532	0.707189894	0.707019312	-0.012842009	0.447553219	0.005284062	0
235	220969242	0.001707356	-0.001796314	0.707187123	0.707022087	0.006004881	0.425732551	0.009692276	0
236	220985909	0.001703594	-0.001798943	0.7071871	0.707022112	0.000575572	0.440791415	0.008532417	0
237	221002576	0.001685287	-0.001802659	0.707182036	0.707027212	0.005865208	0.440125123	0.015439318	0
238	221019243	0.001681423	-0.001794989	0.707183169	0.707026107	-0.012570422	0.448044634	0.001962183	0
239	221035910	0.001796573	-0.001782849	0.707217716	0.706991298	-0.009074109	0.431692743	0.007455348	0
240	221052577	0.001791477	-0.001772529	0.707217316	0.706991737	-0.005025861	0.43135631	0.00114593	0
241	221069244	0.001785474	-0.001763365	0.707222076	0.706987014	-0.009865675	0.460635824	0.016102268	0
242	221085911	0.001785024	-0.001749242	0.707218929	0.706990198	-0.003053511	0.456407501	-0.007296182	0
243	221102578	0.001783676	-0.001741674	0.707221273	0.706987876	-0.002053524	0.437432548	0.010013614	0
244	221119245	0.001785948	-0.001735127	0.70722107	0.706988088	0.00532822	0.44528284	0.004863668	0
245	221135912	0.001782486	-0.001724746	0.70722412	0.706985072	0.003670985	0.411833868	0.012286803	0
246	221152579	0.001784897	-0.001721145	0.7072217	0.706987495	-0.002205039	0.456466622	0.005928539	0
247	221169246	0.001773031	-0.001723199	0.707216675	0.706992547	-0.004213996	0.427596384	0.005959369	0
248	221185913	0.001770374	-0.001728172	0.707212651	0.706996567	0.002675218	0.433957121	0.010344135	0
249	221202580	0.001765187	-0.001722925	0.707212475	0.706996768	-0.00669678	0.43824291	0.001359218	0
250	221219247	0.001772129	-0.00171887	0.707207855	0.707001383	-0.008502712	0.440908276	-0.004239589	0
251	221235914	0.001763621	-0.001717189	0.707206279	0.707002985	-0.011535091	0.449630759	0.007338412	0
252	221252581	0.001762374	-0.001727642	0.707199952	0.707009291	-0.01170126	0.460366426	0.006368374	0
253	221269248	0.001751273	-0.001721354	0.707203076	0.707006209	-0.013178949	0.441233032	0.004099209	0
254	221285915	0.001753473	-0.001710396	0.707203793	0.707005512	-0.004198487	0.446225042	-0.001591151	0
255	221302582	0.001758694	-0.001705071	0.707203852	0.707005454	-0.009181793	0.433177433	0.0045119	0
256	221319249	0.001752572	-0.001706892	0.707202703	0.707006614	-0.008787808	0.465289782	0.001793607	0
257	221335916	0.001754991	-0.001710189	0.707205371	0.707003931	-0.00592813	0.440479117	0.009756355	0
258	221352583	0.001757459	-0.001711759	0.707207288	0.707002003	0.000808782	0.426444691	-0.007418151	0
259	221369250	0.00174653	-0.001715605	0.707206892	0.707002417	-0.009159333	0.44136422	-0.003112961	0
260	221385917	0.001745275	-0.001701571	0.707202627	0.70700672	-0.004928991	0.422499772	0.01044286	0
261	221402584	0.00174284	-0.00169008	0.707209066	0.707000313	-0.000132761	0.414771687	-0.00493779	0
262	221419251	0.001741078	-0.001693778	0.707214001	0.706995373	-0.007135958	0.429788027	0.007874367	0
263	221435918	0.001738546	-0.001689503	0.707221658	0.706987729	-0.002619182	0.428148171	-0.00492149	0
264	221452585	0.001737211	-0.001687052	0.70722148	0.706987916	-0.00707858	0.438546166	0.001071022	0
265	221469252	0.001733713	-0.001688471	0.707225768	0.706983632	-0.010233069	0.464986293	-0.000138756	0
266	221485919	0.001737464	-0.001683167	0.707217659	0.706991747	-0.015166698	0.435736472	-0.000162303	0
267	221502586	0.001738507	-0.001664473	0.70721915	0.706990298	-0.012490385	0.448084665	0.006417608	0
268	221519253	0.001741683	-0.001652247	0.707223788	0.706985679	-0.014048918	0.44645596	0.013679974	0
269	221535920	0.001741216	-0.001650071	0.707221786	0.706987688	0.010800842	0.432490048	-0.009546407	0
270	221552587	0.001741586	-0.001646903	0.70722493	0.706984549	-0.008882676	0.444136263	0.00507994	0
271	221569254	0.001731104	-0.001648522	0.707231562	0.706977937	-0.004495954	0.42074866	0.010537782	0
272	221585921	0.001726859	-0.001642302	0.70723756	0.706971961	-3.51E-05	0.446935524	-0.004111721	0
273	221602588	0.001720157	-0.001634815	0.707233331	0.706976226	-0.016251021	0.44857927	0.001746603	0
274	221619255	0.001716402	-0.001631845	0.707233921	0.706975651	8.39E-05	0.420887974	0.014338834	0
275	221635922	0.001711278	-0.001625891	0.707237761	0.706971837	0.001433217	0.430696392	0.005967197	0
276	221652589	0.001708655	-0.001626953	0.707234973	0.70697463	-0.008726731	0.437457602	0.000273708	0
277	221669256	0.001706966	-0.001623269	0.707233421	0.706976194	-0.002108014	0.427618861	-0.010105924	0
278	221685923	0.001707962	-0.001615696	0.70723914	0.706970488	-0.004270068	0.444983404	-0.00622074	0
279	221702590	0.001703766	-0.001618164	0.707246996	0.706962633	-0.001632481	0.448967486	0.005673538	0
280	221719257	0.001703367	-0.001616964	0.707250731	0.7069589	-0.017570514	0.443624559	0.001163124	0
281	221735924	0.001689087	-0.001616121	0.70725293	0.706956738	-0.007304478	0.450823907	0.000128201	0
282	221752591	0.001674679	-0.001614701	0.707245731	0.706963977	-0.00304075	0.458768424	0.003514981	0
283	221769258	0.001676016	-0.00161272	0.707251149	0.706958557	-0.011893204	0.448231351	-0.001981147	0
284	221785925	0.001678806	-0.001612418	0.707254963	0.706954737	-0.002891086	0.447163301	0.006042614	0
285	221802592	0.001675644	-0.001607641	0.707261854	0.70694786	-0.011671174	0.447184981	0.000733321	0
286	221819259	0.001681207	-0.001607087	0.707263664	0.706946038	2.43E-05	0.436928975	-0.005153985	0
287	221835926	0.001674109	-0.001601365	0.707265705	0.706944026	0.008017383	0.445848402	0.014199962	0
288	221852593	0.001677395	-0.001595819	0.707267733	0.706942002	0.002123768	0.44248512	0.007462554	0
289	221869260	0.001682494	-0.001598355	0.707265416	0.706944302	0.000369034	0.42980708	0.004334165	0
290	221885927	0.001687069	-0.001606604	0.707268076	0.706941611	-0.002643467	0.450163033	0.002997249	0
291	221902594	0.00168025	-0.001618472	0.707271668	0.706938007	-5.48E-05	0.436783111	0.002589145	0
292	221919261	0.001687061	-0.001615652	0.707278756	0.706930905	-0.001071411	0.43940809	-0.008414724	0
293	221935928	0.001690492	-0.001616584	0.707276147	0.706933505	0.004099277	0.458465658	-0.000783883	0
294	221952595	0.001694768	-0.001615037	0.707275353	0.706934293	0.004430351	0.426038401	0.012531348	0
295	221969262	0.001688076	-0.001610553	0.707280074	0.706929596	-0.005993178	0.475026103	-0.005172999	0
296	221985929	0.001697584	-0.001618999	0.707274461	0.70693517	0.013442901	0.444334901	0.005793611	0
297	222002596	0.001707348	-0.001622672	0.707277056	0.706932542	-0.01065055	0.44262454	0.004389531	0
298	222019263	0.001695259	-0.001621767	0.70727653	0.706933098	0.002182687	0.451787242	0.001376929	0
299	222035930	0.001694726	-0.001622734	0.707273887	0.706935742	0.008088521	0.434063284	-0.010942338	0
300	222052597	0.001690936	-0.001622884	0.707276372	0.706933265	0.001482859	0.437127003	-0.009317774	0
301	222069264	0.001681694	-0.001617125	0.707274711	0.706934961	0.005858653	0.433302945	0.000512303	0
302	222085931	0.001681631	-0.001620039	0.707272535	0.706937132	-0.002482438	0.434573408	-0.005369312	0
303	222102598	0.001683515	-0.001622103	0.707274923	0.706934734	0.017464683	0.43698194	0.000879314	0
304	222119265	0.001680313	-0.001616114	0.707279609	0.706930067	0.008291466	0.444466577	-0.012555529	0
305	222135932	0.00168212	-0.001608377	0.707286168	0.706923517	-0.003335957	0.449773043	-0.012133518	0
306	222152599	0.001671358	-0.001602998	0.707290127	0.706919595	0.004310985	0.431787894	-0.002092231	0
307	222169266	0.001668395	-0.001600863	0.707289128	0.706920606	-0.005894643	0.449028469	0.002431347	0
308	222185933	0.001663256	-0.001600798	0.707287056	0.706922691	-0.002586043	0.441688544	0.006865154	0
309	222202600	0.001663354	-0.001595572	0.707283512	0.706926249	-0.009152731	0.436952225	0.007121107	0
310	222219267	0.001664977	-0.001594587	0.707280773	0.706928988	-0.011806727	0.436083906	-0.018838057	0
311	222235934	0.001675559	-0.001594261	0.707275717	0.706934022	-0.009791396	0.434696895	0.001478857	0
312	222252601	0.001664732	-0.00158917	0.70727878	0.706930995	0.005792005	0.426018798	0.001011779	0
313	222269268	0.001670058	-0.001601578	0.707276628	0.706933107	-0.001837269	0.431099493	-0.015747709	0
314	222285935	0.001660932	-0.001598423	0.707273484	0.706936281	0.016280098	0.428503556	-0.008268818	0
315	222302602	0.001666707	-0.001599695	0.70727058	0.70693917	-0.003524071	0.422458302	0.006053009	0
316	222319269	0.001667115	-0.00160474	0.707270966	0.706938771	0.004085712	0.435909768	0.003769407	0
317	222335936	0.001650701	-0.001603112	0.707270861	0.706938918	-0.0061419	0.446341437	0.006316357	0
318	222352603	0.001643323	-0.00160609	0.707277872	0.706931914	-0.001675702	0.446408687	-0.000348964	0
319	222369270	0.00164401	-0.001593506	0.707285384	0.706924426	-0.006925317	0.448710983	0.006376325	0
320	222385937	0.001650321	-0.001597958	0.707286032	0.706923753	0.013006736	0.464056662	-0.002743044	0
321	222402604	0.001658808	-0.001592303	0.707280718	0.706929062	-0.00079648	0.431626604	-0.013914443	0
322	222419271	0.001662214	-0.001593436	0.707280245	0.706929524	0.013985178	0.436471143	0.001872667	0
323	222435938	0.001652119	-0.001601925	0.707274726	0.706935051	-0.003494532	0.426944005	-0.004775318	0
324	222452605	0.00165128	-0.001600103	0.707275016	0.706934766	-0.004335132	0.455841892	-0.009808017	0
325	222469272	0.001637726	-0.001595524	0.70727725	0.706932574	0.003027352	0.44992227	-0.003555072	0
326	222485939	0.00164086	-0.001603357	0.707279306	0.706930492	0.008516209	0.421172784	-0.007305652	0
327	222502606	0.001647155	-0.001593725	0.7072826	0.706927203	-0.006574509	0.433636109	0.007042635	0
328	222519273	0.001641518	-0.001600344	0.707284741	0.706925059	-0.004541463	0.445110038	0.002731416	0
329	222535940	0.001634442	-0.001602095	0.707285308	0.706924504	-0.006161555	0.455434672	0.004253625	0
330	222552607	0.001624562	-0.001600065	0.707279334	0.706930509	-0.009837984	0.443320716	0.008583048	0
331	222569274	0.001619809	-0.001601321	0.707279285	0.706930566	-0.003934906	0.432672843	0.000593881	0
332	222585941	0.001618218	-0.00160225	0.707278602	0.706931251	0.004060646	0.453247776	-0.00711762	0
333	222602608	0.001623871	-0.001593964	0.707279	0.706930858	0.008319724	0.439860639	-0.00042981	0
334	222619275	0.001612943	-0.001591139	0.707279178	0.706930712	-0.003840132	0.437790891	-0.002579581	0
335	222635942	0.001609116	-0.001584046	0.707280804	0.706929109	-0.00206427	0.446982929	-0.001223253	0
336	222652609	0.001602356	-0.001591888	0.707282162	0.706927748	-0.005591615	0.462912385	0.001135904	0
337	222669276	0.001598929	-0.001595075	0.707284084	0.706925826	-0.003869092	0.442126545	0.003493028	0
338	222685943	0.001598401	-0.001586742	0.707286577	0.706923352	0.007808938	0.438656136	-0.004365247	0
339	222702610	0.001597896	-0.001584197	0.707298533	0.706911396	0.010362697	0.428661555	-0.004325943	0
340	222719277	0.001593478	-0.001587433	0.707293668	0.706916267	-0.00486959	0.430438744	0.011896988	0
341	222735944	0.001585555	-0.001591612	0.707295039	0.706914904	5.26E-05	0.435095252	0.009628445	0
342	222752611	0.001594047	-0.001582491	0.707297192	0.706912751	-0.006361806	0.448648097	-0.010993206	0
343	222769278	0.001592013	-0.001579679	0.70729732	0.706912633	0.002119709	0.426402975	0.00301137	0
344	222785945	0.001587768	-0.001570674	0.707291931	0.706918055	0.00360954	0.450676642	-0.004789221	0
345	222802612	0.001582983	-0.001564917	0.707288585	0.706921426	-0.007471219	0.444633642	0.003430521	0
346	222819279	0.001581331	-0.00157118	0.707288361	0.70692164	-0.001969229	0.446546304	-0.007653176	0
347	222835946	0.001585478	-0.001575955	0.707287329	0.706922652	-0.001482745	0.444410998	0.004977143	0
348	222852613	0.001574155	-0.001571012	0.707291343	0.706918673	-0.000748738	0.416513087	0.004134193	0
349	222869280	0.001567935	-0.001571343	0.707288986	0.706921044	0.010673288	0.433248105	0.005665869	0
350	222885947	0.001563995	-0.001564021	0.707294586	0.706915467	0.005941841	0.43563959	0.016790207	0
351	222902614	0.00155726	-0.001570061	0.707297109	0.706912944	0.001109324	0.444013208	-0.009393958	0
352	222919281	0.001547381	-0.001572336	0.707297939	0.70691213	-0.00662308	0.449196087	0.009839004	0
353	222935948	0.001552361	-0.00156664	0.707294397	0.706915675	0.001091363	0.419552569	-0.0023012	0
354	222952615	0.00153931	-0.001562649	0.707294509	0.706915601	-0.001614482	0.445820013	0.005623454	0
355	222969282	0.00155204	-0.001551948	0.707291492	0.706918615	-0.002727271	0.432246258	0.002784812	0
356	222985949	0.001544416	-0.001561826	0.707292391	0.70691771	0.007781873	0.452073561	0.000176533	0
357	223002616	0.001534582	-0.001560361	0.707294206	0.706915919	-0.00490964	0.423759224	-0.008457603	0
358	223019283	0.001524835	-0.001557017	0.707298461	0.70691169	-0.013337416	0.437149602	0.002315968	0
359	223035950	0.001567796	-0.001534508	0.707221947	0.706988193	-0.003730071	0.436896399	-0.006024468	0
360	223052617	0.001567502	-0.001530737	0.707221905	0.706988244	-0.003304829	0.443496371	0.013319371	0
361	223069284	0.001563381	-0.001531577	0.707219853	0.706990304	0.01335317	0.443060034	0.002708166	0
362	223085951	0.001557281	-0.001524147	0.70722314	0.706987046	-0.010656526	0.459535416	0.00606172	0
363	223102618	0.001550029	-0.001523207	0.707215604	0.706994602	0.010768612	0.428014843	0.001148783	0
364	223119285	0.001548364	-0.001519727	0.707217171	0.706993045	-0.013351669	0.427154492	0.011467352	0
365	223135952	0.001546045	-0.001523194	0.707215895	0.706994319	-0.002733377	0.444507636	-0.004926024	0
366	223152619	0.001534061	-0.001539204	0.707214134	0.706996072	-0.000890751	0.42865861	0.003849329	0
367	223169286	0.001534557	-0.001539895	0.707208751	0.707001454	-0.000444791	0.425199263	0.0100837	0
368	223185953	0.001540343	-0.001542784	0.707207107	0.70700308	0.005829891	0.454813693	-0.009800479	0
369	223202620	0.001534578	-0.001539259	0.70720949	0.707000716	-0.005269713	0.445091805	-0.000845449	0
370	223219287	0.00152478	-0.001535237	0.707201091	0.707009148	-0.007114424	0.423262393	0.005808326	0
371	223235954	0.001512252	-0.001529646	0.707198688	0.707011591	-0.012823283	0.455035235	0.002081336	0
372	223252621	0.001524512	-0.0015376	0.707200238	0.707009996	-0.000988323	0.41879117	0.008997614	0
373	223269288	0.001525444	-0.001537995	0.707196776	0.707013456	-0.004752581	0.436778622	0.004318592	0
374	223285955	0.001514028	-0.001542863	0.707200756	0.707009489	-0.002635428	0.441400824	0.007889514	0
375	223302622	0.001509864	-0.001539613	0.707204191	0.707006069	0.001637839	0.444689249	0.001943348	0
376	223319289	0.00150965	-0.001544477	0.707199552	0.7070107	-0.003649736	0.455463546	-0.008467822	0
377	223335956	0.001516052	-0.001544943	0.707203867	0.707006369	-0.003241397	0.446189794	6.12E-05	0
378	223352623	0.001514725	-0.001543803	0.707203209	0.707007032	-0.004312608	0.428320087	-0.006383076	0
379	223369290	0.001505786	-0.00153515	0.707204804	0.707005475	-0.005801391	0.449094516	0.001954122	0
380	223385957	0.001512164	-0.001532304	0.707206481	0.70700379	-0.003964946	0.4446931	0.002327292	0
381	223402624	0.001517305	-0.001518112	0.7072095	0.707000789	-0.001030349	0.440105686	0.020680613	0
382	223419291	0.001519573	-0.001517963	0.707206681	0.707003604	0.003950421	0.426376361	0.011422763	0
383	223435958	0.00151807	-0.001519042	0.707210801	0.706999484	-0.002170629	0.418481426	0.010232643	0
384	223452625	0.001521625	-0.001515646	0.70720815	0.707002136	-0.003684059	0.439552799	0.004317652	0
385	223469292	0.001522653	-0.001517472	0.707215368	0.706994909	0.001652774	0.462615519	-0.002115405	0
386	223485959	0.001519009	-0.001505325	0.707217399	0.706992912	0.00443455	0.435075274	0.007004795	0
387	223502626	0.001518643	-0.001503176	0.70721521	0.706995107	-0.017146756	0.461789943	0.006509002	0
388	223519293	0.001512912	-0.001515434	0.707209892	0.707000412	-0.013904658	0.455654975	0.014750686	0
389	223535960	0.001509914	-0.001528863	0.707209849	0.707000433	-0.002102185	0.411849437	0.004432259	0
390	223552627	0.001520436	-0.001527077	0.707206662	0.707003602	0.000182213	0.450256697	-9.41E-05	0
391	223569294	0.001528706	-0.001514152	0.707211822	0.706998451	0.001683718	0.447535665	0.01347068	0
392	223585961	0.001532721	-0.001513631	0.707209437	0.707000829	0.000376451	0.424523036	0.001490986	0
393	223602628	0.001529891	-0.001516312	0.707212662	0.706997603	-0.001710559	0.423244095	0.003356874	0
394	223619295	0.001543581	-0.001508485	0.707218448	0.706991802	0.003459388	0.442304838	0.00400572	0
395	223635962	0.001533403	-0.001502121	0.707220355	0.706989931	-0.003180923	0.423295718	-0.013273078	0
396	223652629	0.001539467	-0.001501306	0.707224696	0.706985576	-0.000954543	0.440130921	-0.004451625	0
397	223669296	0.00153866	-0.001503041	0.707221877	0.706988395	-0.009734999	0.455709216	0.013721699	0
398	223685963	0.001533407	-0.001503351	0.707219661	0.706990622	0.005412895	0.457660971	-0.00368924	0
399	223702630	0.001533987	-0.001498365	0.707213117	0.706997178	-0.002443815	0.42889681	0.006052499	0
400	223719297	0.001528836	-0.001496121	0.707209439	0.707000873	0.001942613	0.452155635	-0.001259934	0
401	223735964	0.001510436	-0.001496517	0.707208807	0.707001543	-0.009395677	0.440170412	-0.002212361	0
402	223752631	0.001508249	-0.001502005	0.707207281	0.707003063	-0.005793037	0.445396936	-0.00561984	0
403	223769298	0.001500822	-0.001498964	0.707209904	0.707000461	-0.005204554	0.454398674	0.003471435	0
404	223785965	0.001496345	-0.001507055	0.70720898	0.707001378	-0.001570283	0.418815076	-0.000324433	0
405	223802632	0.001481725	-0.001512921	0.707207826	0.70700255	-0.008157336	0.462402226	0.008077554	0
406	223819299	0.00147656	-0.001504109	0.707214236	0.706996168	-0.001602895	0.4237856	-0.003446407	0
407	223835966	0.001478547	-0.001499458	0.707218188	0.706992221	-0.005700878	0.449099606	0.015738995	0
408	223852633	0.001479446	-0.001497344	0.707217314	0.706993098	0.001781455	0.439678093	0.004547707	0
409	223869300	0.001478346	-0.001485355	0.707216988	0.706993451	-0.005598455	0.420750644	0.001987057	0
410	223885967	0.001472212	-0.00147944	0.707215072	0.706995393	0.004547636	0.435087424	-0.006117839	0
411	223902634	0.001464069	-0.001477411	0.707215744	0.706994742	-0.003156037	0.444478561	-0.00258693	0
412	223919301	0.001457154	-0.001482201	0.707215968	0.706994522	0.010436048	0.408485435	-0.003572857	0
413	223935968	0.00145212	-0.001479168	0.70721709	0.706993416	-0.002883711	0.439567231	-0.008088328	0
414	223952635	0.00145334	-0.00148051	0.707221615	0.706988884	0.001082487	0.425502433	0.011213246	0
415	223969302	0.001455649	-0.001480917	0.707220716	0.706989779	0.002825389	0.444925496	0.010821057	0
416	223985969	0.001451154	-0.001477371	0.707227698	0.706982811	0.001177945	0.420423617	0.00537945	0
417	224002636	0.001446764	-0.001474033	0.707227926	0.706982599	0.004361464	0.434451305	0.012918441	0
418	224019303	0.001439512	-0.001472099	0.707233051	0.70697749	-0.002010367	0.456366818	0.007226085	0
419	224035970	0.00143433	-0.001468033	0.707236503	0.706974057	0.00257349	0.43877218	0.003644406	0
420	224052637	0.001428387	-0.001467967	0.707238776	0.706971795	-0.001327853	0.437665927	0.010866646	0
421	224069304	0.001429257	-0.001475351	0.707236422	0.706974132	-0.00452202	0.42501851	0.008266656	0
422	224085971	0.001424278	-0.001480478	0.707235603	0.706974951	-0.016096102	0.445253713	0.00040701	0
423	224102638	0.001428065	-0.001477367	0.707244512	0.706966038	-0.001714724	0.431997759	0.01047682	0
424	224119305	0.001421806	-0.001473577	0.707245966	0.706964604	0.003475144	0.43078148	-0.010508742	0
425	224135972	0.001428132	-0.001474694	0.707247763	0.706962791	0.004284472	0.443777241	0.007245339	0
426	224152639	0.001423276	-0.001473085	0.707251163	0.706959402	-0.004529888	0.430194749	-0.004752162	0
427	224169306	0.001430297	-0.001473866	0.707249678	0.706960873	-0.002939754	0.412089642	-0.006103922	0
428	224185973	0.001426612	-0.001468673	0.707244794	0.706965777	0.006546165	0.413147579	-0.002836786	0
429	224202640	0.001422301	-0.001478192	0.707242577	0.706967984	-0.000917968	0.447159213	-0.000418434	0
430	224219307	0.001423915	-0.001472764	0.707240943	0.706969626	-0.001451151	0.429027674	-0.003449414	0
431	224235974	0.001421854	-0.001469892	0.70723881	0.70697177	-0.010206389	0.443732087	-0.004477174	0
432	224252641	0.001418303	-0.001459205	0.707242365	0.706968242	0.006504929	0.425625004	-0.005297545	0
433	224269308	0.001419492	-0.001454196	0.707242488	0.706968128	0.013321025	0.425152242	0.02451527	0
434	224285975	0.001413646	-0.001449115	0.707241839	0.706968799	0.004794895	0.431306705	-0.003070947	0
435	224302642	0.001412843	-0.001438193	0.707248364	0.706962295	-0.000335001	0.438550021	0.00011064	0
436	224319309	0.001407394	-0.001436112	0.707249994	0.70696068	-0.003390267	0.432440351	0.00753129	0
437	224335976	0.001400296	-0.001428366	0.707254987	0.706955714	0.009218261	0.434055572	0.008494793	0
438	224352643	0.001392288	-0.0014202	0.707250912	0.706959823	0.005603022	0.429187912	0.01507669	0
439	224369310	0.001398972	-0.001416212	0.707256674	0.706954054	0.000728273	0.464325717	0.004856181	0
440	224385977	0.001403292	-0.00142022	0.707261685	0.706949024	-0.008777391	0.444687513	0.001840191	0
441	224402644	0.00139529	-0.001423366	0.707258964	0.706951756	0.009185761	0.439978822	0.005050277	0
442	224419311	0.001391891	-0.001415296	0.707264451	0.706946289	0.000455933	0.439151944	0.002181752	0
443	224435978	0.001390953	-0.001419684	0.707258908	0.706951828	0.003545818	0.442629981	0.007998676	0
444	224452645	0.001395266	-0.001408567	0.70725767	0.70695308	0.006849775	0.442646689	0.007989399	0
445	224469312	0.001397145	-0.001412358	0.707255269	0.706955471	-0.002927138	0.43400508	-0.004755384	0
446	224485979	0.00139933	-0.001414565	0.707258469	0.70695226	0.005942865	0.432367564	0.011409574	0
447	224502646	0.001405197	-0.001418242	0.707254134	0.706956579	0.000680997	0.465727137	3.21E-05	0
448	224519313	0.00140833	-0.001415733	0.707254327	0.706956384	0.002043836	0.442112987	0.001551067	0
449	224535980	0.001411516	-0.001413834	0.707257493	0.706953214	0.003375362	0.437784528	0.000403493	0
450	224552647	0.001408685	-0.001419676	0.707254742	0.706955961	-0.007366999	0.428798235	-0.010000678	0
451	224569314	0.001415009	-0.001424871	0.707255292	0.706955387	-0.006071301	0.438838335	-0.006506731	0
452	224585981	0.001419218	-0.001424707	0.707256686	0.706953984	-0.008418203	0.456744381	0.008811296	0
453	224602648	0.001418462	-0.001423805	0.70726322	0.706947451	-0.006453443	0.420616406	0.000648078	0
454	224619315	0.001410148	-0.00142499	0.707266059	0.706944625	-0.011543118	0.447377247	-0.002312463	0
455	224635982	0.001411946	-0.001433141	0.707261736	0.70694893	0.008812767	0.456351004	-0.003951094	0
456	224652649	0.001409854	-0.00142895	0.707258443	0.706952237	-0.005912955	0.418945999	-0.004002891	0
457	224669316	0.001408839	-0.001419991	0.707252849	0.706957853	-0.005457541	0.449710173	0.002849162	0
458	224685983	0.001411897	-0.001411619	0.707254293	0.70695642	0.000955555	0.421384408	0.008036493	0
459	224702650	0.001419077	-0.001409806	0.707254463	0.706956239	0.00061896	0.418640265	0.002242499	0
460	224719317	0.001421893	-0.001396967	0.707250967	0.706959756	-0.001421317	0.440402253	-0.001341653	0
461	224735984	0.001419008	-0.00138792	0.707257217	0.706953527	-0.006513758	0.447188843	0.000456952	0
462	224752651	0.001426052	-0.0013863	0.707250857	0.706959878	-0.004471197	0.413137638	0.008596465	0
463	224769318	0.001423006	-0.001393085	0.707247532	0.706963198	0.00067447	0.437670805	0.009861626	0
464	224785985	0.001409055	-0.001393479	0.707244713	0.706966045	0.012123258	0.44123631	0.008481239	0
465	224802652	0.001405645	-0.001390889	0.707248064	0.706962704	0.007896739	0.417651018	0.010662786	0
466	224819319	0.001401065	-0.001379635	0.70725064	0.706960158	0.009950481	0.450816575	0.01451185	0
467	224835986	0.001397763	-0.001373928	0.707247832	0.706962985	-0.016118369	0.438755817	-0.003420101	0
468	224852653	0.001405949	-0.001374186	0.707250512	0.706960288	-0.001065425	0.423794987	-0.001321243	0
469	224869320	0.00140987	-0.001375455	0.707252359	0.70695843	-0.01175419	0.458020861	-0.007798027	0
470	224885987	0.001403016	-0.001384171	0.707251435	0.70695935	1.34E-05	0.450106869	-0.010159921	0
471	224902654	0.001408455	-0.001380716	0.707247359	0.706963424	0.007654843	0.42569559	0.018699772	0
472	224919321	0.001408205	-0.001383312	0.707250347	0.70696043	0.007684403	0.429013153	0.00266891	0
473	224935988	0.001413727	-0.001379407	0.707254559	0.706956214	-0.003296776	0.436088689	-0.007443433	0
474	224952655	0.001414032	-0.001391112	0.707251023	0.706959727	-0.000846731	0.437521343	0.006705355	0
475	224969322	0.001409506	-0.001394138	0.707254937	0.706955815	-0.007268147	0.447322712	0.00028259	0
476	224985989	0.001415697	-0.001398991	0.707252816	0.706957914	0.004892324	0.427107957	0.001734895	0
477	225002656	0.001406497	-0.001398832	0.707253405	0.706957343	0.005152816	0.456422417	-0.001628433	0
478	225019323	0.001404257	-0.001391188	0.707256351	0.706954416	0.002316562	0.436393883	0.008566962	0
479	225035990	0.001423434	-0.001394	0.707233218	0.706977515	0.005624445	0.448314816	0.003935561	0
480	225052657	0.001424533	-0.001386658	0.707232242	0.706978503	0.001266824	0.440748347	-0.007966751	0
481	225069324	0.001416575	-0.001389998	0.707238265	0.706972487	0.0002436	0.457280537	-0.001177227	0
482	225085991	0.001405249	-0.001383942	0.707239047	0.706971739	-0.003240822	0.414528841	0.009721614	0
483	225102658	0.001407183	-0.001384466	0.70723939	0.706971391	0.000474128	0.4350129	-0.004832955	0
484	225119325	0.001408225	-0.001378741	0.707236395	0.706974397	0.005947753	0.420912108	0.005785928	0
485	225135992	0.001399738	-0.001376265	0.707232886	0.706977929	0.001591863	0.457743315	0.006864755	0
486	225152659	0.001394982	-0.001371611	0.707229979	0.706980855	-0.003159851	0.449704257	0.003691801	0
487	225169326	0.001391356	-0.00135987	0.707229291	0.706981573	-0.001702959	0.45023131	-0.004939693	0
488	225185993	0.001399586	-0.001350535	0.707228227	0.706982639	-0.002115729	0.442892414	0.000534305	0
489	225202660	0.001394755	-0.001358096	0.70723229	0.70697857	-2.88E-05	0.435646969	-0.001802908	0
490	225219327	0.001395466	-0.001350331	0.707230994	0.706979879	-0.005133398	0.42674449	-0.003657702	0
491	225235994	0.001401219	-0.00133986	0.707225919	0.706984966	0.009555528	0.424477296	0.009832176	0
492	225252661	0.001406998	-0.001337346	0.707226669	0.706984208	0.016227518	0.47948078	0.002375217	0
493	225269328	0.001376706	-0.001372201	0.70723174	0.706979129	-0.018601489	0.426110156	0.003501676	0
494	225285995	0.001387935	-0.001358958	0.707228592	0.70698228	0.002773381	0.423164406	-0.006401957	0
495	225302662	0.001413007	-0.00134306	0.707228936	0.706981917	0.002666009	0.47333186	0.005129904	0
496	225319329	0.001400078	-0.001351828	0.707228054	0.706982808	-0.006612123	0.461859176	0.008616472	0
497	225335996	0.001389871	-0.001351619	0.707232659	0.706978223	-0.001518229	0.423516333	0.006800289	0
498	225352663	0.001380981	-0.001356093	0.707232694	0.706978197	-0.001980579	0.426569942	0.011584617	0
499	225369330	0.001389731	-0.001347715	0.707224057	0.706986836	-0.005004474	0.427254516	0.004684092	0
500	225385997	0.001390052	-0.001345248	0.707223916	0.706986981	-0.001511269	0.431323373	0.001686443	0
501	225402664	0.001390819	-0.00134146	0.707229108	0.706981792	0.005069648	0.445198783	-0.005817984	0
502	225419331	0.001385039	-0.001342436	0.707238961	0.706971945	-0.006741959	0.4675818	-0.002465003	0
503	225435998	0.001383003	-0.001339721	0.707231867	0.706979051	0.004198065	0.451726021	-0.002102475	0
504	225452665	0.001381025	-0.001338432	0.70723554	0.706975383	0.012578596	0.446861949	-0.000736916	0
505	225469332	0.001370537	-0.001337873	0.707238793	0.70697215	-0.00612953	0.434922766	-0.000391472	0
506	225485999	0.001371265	-0.001332733	0.707241929	0.706969021	0.00190921	0.45756413	-0.024080143	0
507	225502666	0.001376422	-0.00133476	0.707242028	0.706968908	-0.006945742	0.431146501	0.00329725	0
508	225519333	0.001380631	-0.001330066	0.707238532	0.706972406	-0.013755902	0.445377207	0.009238355	0
509	225536000	0.001379439	-0.001329188	0.707233469	0.706977476	0.003301535	0.437724237	-0.010338225	0
510	225552667	0.001372424	-0.001323963	0.707229129	0.70698184	0.009055701	0.462053986	0.001099575	0
511	225569334	0.001370875	-0.001323802	0.707235488	0.706975483	-0.003563457	0.428409898	0.004239006	0
512	225586001	0.001359191	-0.001326338	0.707238387	0.7069726	0.001823791	0.441783032	0.00551954	0
513	225602668	0.001353545	-0.001328601	0.707242707	0.706968285	0.01096525	0.450250093	-0.007240899	0
514	225619335	0.001353128	-0.001319829	0.707242062	0.706968947	-0.000981128	0.426279522	-0.003553759	0
515	225636002	0.001351854	-0.001316072	0.707247837	0.70696318	0.011719355	0.457828422	0.003798888	0
516	225652669	0.001346863	-0.001321994	0.707255587	0.706955425	0.002081173	0.435811753	-0.004165982	0
517	225669336	0.001340171	-0.001313516	0.707252901	0.706958141	-0.00358498	0.437875292	0.005873575	0
518	225686003	0.00134765	-0.001302496	0.707249052	0.706961998	-0.011529205	0.449723189	0.00471326	0
519	225702670	0.001350089	-0.001296853	0.707254893	0.70695616	0.001922452	0.440010281	-0.006729589	0
520	225719337	0.00135251	-0.001294511	0.707257672	0.70695338	-0.002189709	0.451144956	-0.004129107	0
521	225736004	0.001359312	-0.001285701	0.707260876	0.706950177	0.011662122	0.456585056	-0.012150582	0
522	225752671	0.00136121	-0.001281925	0.707260643	0.706950413	-0.006932619	0.436289667	-0.000416029	0
523	225769338	0.001355537	-0.001282574	0.707264407	0.706946657	0.00179382	0.439049826	0.000587664	0
524	225786005	0.001367384	-0.001277501	0.707257624	0.70695343	-0.006726009	0.436357811	-0.007926629	0
525	225802672	0.001360098	-0.001276487	0.707257163	0.706953907	9.93E-05	0.423706113	0.003196379	0
526	225819339	0.001367243	-0.001285044	0.707256442	0.706954598	-0.005882328	0.437556064	0.001039725	0
527	225836006	0.001374771	-0.001276184	0.707245928	0.706965118	0.005673478	0.428040684	0.003390481	0
528	225852673	0.001367846	-0.001262564	0.707242131	0.706968955	-0.001689473	0.446619567	0.004353981	0
529	225869340	0.001380046	-0.001253944	0.707240677	0.706970401	0.004320468	0.445478409	0.003275464	0
530	225886007	0.001372313	-0.001249098	0.707238732	0.706972371	-0.009394922	0.433326121	-0.007513353	0
531	225902674	0.001362638	-0.00126299	0.707239513	0.706971583	0.001214603	0.465534598	7.18E-05	0
532	225919341	0.001362311	-0.001256555	0.707238657	0.706972452	0.010335498	0.434300203	0.000992361	0
533	225936008	0.001368357	-0.001249013	0.70723323	0.706977882	-0.000490175	0.436270463	-0.005663986	0
534	225952675	0.001370482	-0.001249947	0.707237541	0.706973564	-0.008258444	0.45225665	-0.006035092	0
535	225969342	0.001379909	-0.001252319	0.707239701	0.70697138	0.009009924	0.413776839	0.0057594	0
536	225986009	0.001384957	-0.001254163	0.707243553	0.706967513	0.006320357	0.436536843	-0.007220138	0
537	226002676	0.001377324	-0.001251673	0.707240738	0.706970349	0.000703873	0.438363221	0.002156923	0
538	226019343	0.001382893	-0.001255442	0.707242306	0.706968763	0.008656062	0.439752625	0.001245941	0
539	226036010	0.001384419	-0.001253049	0.707240306	0.706970765	-0.000819397	0.445655838	0.004753019	0
540	226052677	0.001382086	-0.001254405	0.707237105	0.70697397	0.0012417	0.416850013	-0.000341935	0
541	226069344	0.001387467	-0.001257265	0.707240148	0.706970909	0.005231121	0.419252949	0.006546338	0
542	226086011	0.001386489	-0.001242962	0.707240412	0.706970673	0.007481015	0.44152029	-0.005249632	0
543	226102678	0.001380353	-0.00124006	0.70724339	0.70696771	0.001569178	0.438119472	0.007521569	0
544	226119345	0.001382686	-0.00123846	0.707241095	0.706970005	0.001299553	0.419265528	0.004424934	0
545	226136012	0.001381806	-0.001234398	0.707241528	0.70696958	0.012473123	0.437748208	0.003338198	0
546	226152679	0.001382813	-0.001240686	0.707238082	0.706973015	0.011174243	0.414724226	0.00884319	0
547	226169346	0.00138385	-0.001232199	0.707231403	0.706979709	0.000268306	0.4355566	-0.010884422	0
548	226186013	0.00138272	-0.001231044	0.707229073	0.706982044	0.000231546	0.452688721	-0.001079317	0
549	226202680	0.001382922	-0.001224436	0.707229705	0.706981423	-0.00839988	0.466727535	0.01013069	0
550	226219347	0.001388846	-0.001223934	0.707229789	0.706981328	0.003951437	0.442891196	-0.004518579	0
551	226236014	0.001393678	-0.001224955	0.707229214	0.706981892	-0.003377887	0.447782102	0.000926267	0
552	226252681	0.001387085	-0.001226356	0.707226966	0.706984152	0.010924154	0.44713544	0.003816848	0
553	226269348	0.001402429	-0.001225485	0.70722681	0.706984279	0.006975335	0.451609881	-0.008865395	0
554	226286015	0.001393793	-0.001222672	0.707234681	0.706976427	0.000246004	0.440927125	-0.001176697	0
555	226302682	0.001386317	-0.001223012	0.707232041	0.706979082	-0.00376871	0.426076882	-0.003201658	0
556	226319349	0.00138214	-0.001215881	0.70723663	0.706974512	0.006944549	0.438767735	-0.009661258	0
557	226336016	0.001378441	-0.001213134	0.707231856	0.706979299	0.000295057	0.433756877	0.01843598	0
558	226352683	0.001382301	-0.001226074	0.707229528	0.706981599	-0.006956988	0.440058202	-0.006096327	0
559	226369350	0.00138204	-0.001231395	0.707226648	0.706984471	-0.001069781	0.427864395	0.008025824	0
560	226386017	0.001370021	-0.00122817	0.707230708	0.706980438	-0.000665672	0.441955064	-0.00852928	0
561	226402684	0.001361824	-0.001221661	0.707230849	0.706980324	0.001293993	0.439602686	-0.000276932	0
562	226419351	0.001347439	-0.001212105	0.707230972	0.706980245	-0.007104511	0.429972961	-0.005905399	0
563	226436018	0.001349929	-0.00121163	0.707234852	0.70697636	0.011388535	0.444073645	-0.006710062	0
564	226452685	0.001350084	-0.001197707	0.707235795	0.70697544	-1.94E-05	0.435472987	0.016891958	0
565	226469352	0.001355105	-0.001189912	0.707233499	0.706977741	-0.005784942	0.455517246	0.011733489	0
566	226486019	0.001354633	-0.001197038	0.707223704	0.706987528	-0.003002353	0.440354364	0.001539049	0
567	226502686	0.001349886	-0.001200399	0.70722015	0.706991086	0.005480062	0.47514703	-0.005916926	0
568	226519353	0.001361045	-0.001190587	0.707221041	0.70699019	0.005177189	0.446753884	-0.005675886	0
569	226536020	0.001357743	-0.001189853	0.707221372	0.706989867	0.005361554	0.430773518	0.001514136	0
570	226552687	0.001357141	-0.001191986	0.707219759	0.706991478	0.000631547	0.437473471	0.006608467	0
571	226569354	0.001353316	-0.001185432	0.70722091	0.706990345	-0.001225698	0.459204689	-0.003705142	0
572	226586021	0.001357546	-0.001185006	0.707214854	0.706996396	-0.023005976	0.430490731	0.005731614	0
573	226602688	0.001354698	-0.001188373	0.707217424	0.706993825	0.002008157	0.454191585	0.00305171	0
574	226619355	0.001356958	-0.001185618	0.707218188	0.70699306	-0.000838519	0.441675484	-0.000212238	0
575	226636022	0.001364852	-0.001186119	0.7072197	0.706991532	-0.005378831	0.453960431	-0.004601678	0
576	226652689	0.001365586	-0.001183415	0.707219735	0.7069915	-0.005070524	0.461169634	-0.005722599	0
577	226669356	0.001364018	-0.001176275	0.707216304	0.706994948	-0.005017336	0.442499251	-0.008086287	0
578	226686023	0.001366454	-0.001170264	0.70721642	0.706994837	-0.003202893	0.439651104	-0.001887826	0
579	226702690	0.001379714	-0.001176701	0.707219005	0.706992214	0.008610315	0.436963	0.006547106	0
580	226719357	0.001386265	-0.001173062	0.707219102	0.706992111	0.001450795	0.438218103	0.012119778	0
581	226736024	0.001387112	-0.00116855	0.707224814	0.706986402	0.000228048	0.429897463	0.00373824	0
582	226752691	0.001390632	-0.001157292	0.707229459	0.706981767	0.001568046	0.434090926	0.002080384	0
583	226769358	0.001396149	-0.001155552	0.707223979	0.706987242	-0.008353489	0.432910883	0.00497049	0
584	226786025	0.001399175	-0.001152744	0.707227945	0.706983273	0.003500975	0.44254026	0.00095323	0
585	226802692	0.001394659	-0.001152611	0.707233602	0.706977623	-0.009435252	0.435121884	0.002420991	0
586	226819359	0.001399899	-0.001146549	0.707233099	0.706978125	0.002827208	0.435914225	0.000652143	0
587	226836026	0.001394967	-0.001149947	0.707232839	0.706978389	0.00951001	0.421556784	-0.004533067	0
588	226852693	0.001391117	-0.001148073	0.707234872	0.706976366	-0.007363524	0.43174071	0.023091572	0
589	226869360	0.001386661	-0.00114477	0.707228171	0.706983084	0.004526802	0.457520645	-0.003475097	0
590	226886027	0.001393401	-0.001132824	0.707227804	0.706983456	-0.002110537	0.450387652	0.001912286	0
591	226902694	0.001392721	-0.001139371	0.707232777	0.706978473	0.002825376	0.423859301	0.00194823	0
592	226919361	0.001392704	-0.00113699	0.707238555	0.706972697	0.002918715	0.417408808	0.00814751	0
593	226936028	0.001397239	-0.001130743	0.707246722	0.706964528	0.00838956	0.466748198	0.006310279	0
594	226952695	0.001388602	-0.00112679	0.707249845	0.706961427	0.000770421	0.443101027	-0.000628595	0
595	226969362	0.001392588	-0.001133808	0.707250435	0.706960818	0.00344466	0.483383368	-0.002910134	0
596	226986029	0.00138956	-0.001127157	0.70725413	0.706957138	0.007823147	0.434788359	-0.008783674	0
597	227002696	0.001390496	-0.00112798	0.707257358	0.706953905	0.008173673	0.435218251	-0.0022196	0
598	227019363	0.001390196	-0.001137302	0.707258349	0.706952899	0.010721884	0.442374775	0.004789467	0
599	227036030	0.001289501	-0.001271119	0.707246868	0.706964348	-0.002621172	0.446442527	0.015601683	0
600	227052697	0.001294809	-0.001271013	0.707242155	0.706969054	-0.000587524	0.442845844	-0.000405358	0
601	227069364	0.001299933	-0.001271898	0.70723467	0.70697653	0.00853121	0.422898276	-0.004091188	0
602	227086031	0.001296723	-0.001276425	0.707233479	0.706977719	-0.015345996	0.43654607	0.001572117	0
603	227102698	0.001295316	-0.001284829	0.707233301	0.706977885	-0.001412671	0.437585576	0.007779705	0
604	227119365	0.001295179	-0.001291947	0.707231514	0.70697966	-0.000458574	0.420811129	-0.00036159	0
605	227136032	0.001302122	-0.001284362	0.707232678	0.706978497	-0.011851177	0.435864339	-0.001513584	0
606	227152699	0.001291446	-0.001293092	0.707230956	0.706980222	-0.006069865	0.432138601	0.005648762	0
607	227169366	0.001291151	-0.001292573	0.707235193	0.706975985	0.005727448	0.445706946	0.003689841	0
608	227186033	0.001287022	-0.00128914	0.707231045	0.706980149	0.009374652	0.436902859	-0.008018469	0
609	227202700	0.001280887	-0.001289425	0.707233915	0.706977289	-0.010505608	0.443054394	0.001784088	0
610	227219367	0.001279087	-0.00129318	0.707230931	0.70698027	-0.00231597	0.414718376	-0.003175288	0
611	227236034	0.001287306	-0.001294612	0.707236492	0.706974689	-0.007497453	0.443859792	0.000681038	0
612	227252701	0.001297194	-0.001299079	0.707233402	0.706977754	-0.013540499	0.428667827	0.000753378	0
613	227269368	0.00130024	-0.001302065	0.707234854	0.70697629	-0.014657628	0.436991486	-0.010656655	0
614	227286035	0.001295893	-0.001294685	0.707239445	0.70697172	0.002136549	0.433947999	-0.010197131	0
615	227302702	0.001293566	-0.001298512	0.707242617	0.706968544	-0.006060711	0.441541858	0.000284144	0
616	227319369	0.00128993	-0.001311761	0.707238895	0.706972249	0.005909651	0.421509948	-0.00134482	0
617	227336036	0.001288507	-0.001314383	0.707236168	0.706974975	0.004767514	0.442876603	-0.00223905	0
618	227352703	0.001293216	-0.001315921	0.707233864	0.706977269	0.000457871	0.436774952	-0.000555961	0
619	227369370	0.001293423	-0.001307191	0.707231577	0.706979572	0.002001617	0.43647634	0.007321953	0
620	227386037	0.001282478	-0.001316179	0.707231876	0.706979276	-0.001028564	0.43095851	0.013153171	0
621	227402704	0.001284136	-0.001312636	0.707233336	0.706977819	0.004430281	0.434714627	0.004806275	0
622	227419371	0.001285917	-0.001311614	0.707230638	0.706980517	0.010619435	0.446208207	0.001423085	0
623	227436038	0.001283376	-0.001306483	0.707234722	0.706976445	0.00498103	0.465630144	0.002477459	0
624	227452705	0.001280377	-0.001305279	0.707229194	0.706981983	0.004253271	0.450553666	-0.005441692	0
625	227469372	0.001276881	-0.0013116	0.707229041	0.706982131	-0.000704793	0.434259216	0.008874321	0
626	227486039	0.001281508	-0.00130433	0.707223974	0.706987204	-0.004075816	0.433074225	0.001454346	0
627	227502706	0.001285984	-0.00130189	0.707220131	0.706991045	0.004228776	0.445509752	0.006224498	0
628	227519373	0.001289192	-0.001293165	0.70721572	0.706995468	-0.005417903	0.45405286	0.00161261	0
629	227536040	0.001282644	-0.001294622	0.707216035	0.706995161	0.006837254	0.446082104	9.19E-05	0
630	227552707	0.001280571	-0.001299484	0.707218266	0.706992925	0.018637501	0.410382876	0.003273482	0
631	227569374	0.001273092	-0.001300284	0.707221584	0.706989618	-0.000479348	0.445930096	-0.008645644	0
632	227586041	0.001271041	-0.001303924	0.707226543	0.706984654	0.009152177	0.442343437	0.001905801	0
633	227602708	0.001268354	-0.001293797	0.70722392	0.706987301	0.005704809	0.4202597	-0.001215766	0
634	227619375	0.001263647	-0.001290868	0.707225253	0.706985982	0.007933016	0.414671091	0.001293241	0
635	227636042	0.001269355	-0.001299497	0.707228022	0.706983186	0.002370281	0.435238006	-0.004738739	0
636	227652709	0.001260725	-0.001303432	0.707224129	0.706987088	0.001624003	0.43466206	-0.000818051	0
637	227669376	0.001257523	-0.00130586	0.707214983	0.706996239	0.012413711	0.431053635	0.007562812	0
638	227686043	0.001259965	-0.001307512	0.707210908	0.707000307	0.006379093	0.418314983	0.001849183	0
639	227702710	0.001256086	-0.001304175	0.707218504	0.706992722	0.014464034	0.442851012	-0.004057828	0
640	227719377	0.001264606	-0.001300979	0.707217811	0.706993406	0.000963569	0.437465388	0.002685358	0
641	227736044	0.001265774	-0.001308379	0.707220001	0.706991199	-0.018823191	0.451042299	-0.005362645	0
642	227752711	0.001273472	-0.00130652	0.707225947	0.706985241	-0.001790474	0.436673312	-0.006344106	0
643	227769378	0.001275766	-0.001308304	0.707224756	0.706986425	-0.002907439	0.433585877	0.00313513	0
644	227786045	0.001272953	-0.001305459	0.707226459	0.706984732	0.004220564	0.44833028	-0.004780813	0
645	227802712	0.001274658	-0.001315889	0.707230408	0.706980759	-0.004269704	0.4565463	0.007461907	0
646	227819379	0.001270596	-0.001310588	0.707237827	0.706973355	-0.006647582	0.443953239	0.001813219	0
647	227836046	0.00126663	-0.001309651	0.707233502	0.70697769	0.000308554	0.442150125	0.005370286	0
648	227852713	0.001266923	-0.001308679	0.707233459	0.706977735	-0.012268091	0.449432118	-0.003036443	0
649	227869380	0.001268547	-0.001308555	0.707235446	0.706975744	-0.003567889	0.438917282	-0.000474473	0
650	227886047	0.001262883	-0.001306624	0.707239282	0.70697192	0.006556635	0.433535804	-0.001098763	0
651	227902714	0.001263266	-0.001305494	0.707234147	0.706977058	-0.009070362	0.447562559	-0.000537106	0
652	227919381	0.001262235	-0.001303741	0.707230669	0.706980543	0.003202368	0.437777768	-0.003902826	0
653	227936048	0.001264882	-0.001308427	0.7072281	0.706983099	0.004638531	0.428835299	0.007827529	0
654	227952715	0.001256469	-0.001307054	0.707225029	0.706986188	0.009994002	0.441135855	0.006606631	0
655	227969382	0.001258094	-0.001315451	0.70722295	0.70698825	0.001876509	0.448712574	0.004569454	0
656	227986049	0.001248352	-0.001324497	0.707217902	0.7069933	-0.01443156	0.453186458	0.002279481	0
657	228002716	0.001245184	-0.001324081	0.707215202	0.706996007	-0.004245783	0.449679441	-0.001544863	0
658	228019383	0.001257418	-0.001329874	0.707217897	0.706993279	-0.003875089	0.433838576	0.012111374	0
659	228036050	0.001251918	-0.001333646	0.707214183	0.706996997	-0.014098814	0.422071038	-0.003871437	0
660	228052717	0.001264658	-0.001323214	0.707204802	0.707006378	0.004416929	0.457293473	0.003183523	0
661	228069384	0.00126646	-0.001317251	0.707198468	0.707012721	0.003271239	0.433587433	0.003763589	0
662	228086051	0.001257464	-0.001321306	0.707203341	0.707007855	-0.007883015	0.438841567	-0.003116676	0
663	228102718	0.001247264	-0.001320562	0.707201902	0.707009314	-0.011725775	0.441210754	-0.007415559	0
664	228119385	0.001250328	-0.001315399	0.707200235	0.707010986	0.003546466	0.434699276	0.005110349	0
665	228136052	0.00124183	-0.001316369	0.707194654	0.707016581	-0.018368821	0.438787829	-0.00084449	0
666	228152719	0.001250456	-0.001313206	0.707192692	0.707018535	0.002263905	0.447407476	0.003275398	0
667	228169386	0.001245706	-0.0013077	0.707194075	0.707017169	0.002123202	0.436754313	0.004043426	0
668	228186053	0.001242141	-0.001313915	0.707192124	0.707019117	-0.001119504	0.447180622	0.000169841	0
669	228202720	0.00122789	-0.001311182	0.707195723	0.707015546	-0.00517003	0.450647385	0.000514104	0
670	228219387	0.001235284	-0.001304771	0.707201417	0.70700985	0.000605267	0.442367716	0.007272473	0
671	228236054	0.001236738	-0.00131069	0.707204525	0.707006727	-0.00233889	0.438917605	0.004167239	0
672	228252721	0.001235507	-0.001309933	0.707205658	0.707005597	-0.006748096	0.444682954	-0.004108479	0
673	228269388	0.001237462	-0.001319628	0.707202764	0.707008471	0.000811072	0.437943089	-0.008781005	0
674	228286055	0.001235043	-0.001319638	0.7072033	0.707007938	-0.007966404	0.448531452	-0.005854176	0
675	228302722	0.001229497	-0.001319399	0.70719728	0.70701397	-0.003412106	0.439162121	0.006960418	0
676	228319389	0.001224938	-0.001323003	0.707198468	0.707012784	-0.00454977	0.444661085	-0.00387589	0
677	228336056	0.001217556	-0.001315876	0.707196668	0.70701461	-0.004792895	0.439854843	0.00278266	0
678	228352723	0.001221546	-0.001325244	0.7071993	0.707011953	-0.004391412	0.420578547	-0.004388912	0
679	228369390	0.00120966	-0.001326507	0.707205478	0.707005792	0.006572276	0.454652283	-0.009778051	0
680	228386057	0.001210269	-0.001326457	0.707207461	0.707003807	-0.005484633	0.441810363	-0.001347543	0
681	228402724	0.001209066	-0.001331688	0.707209628	0.707001631	-0.011511028	0.445596233	-0.001726366	0
682	228419391	0.001205068	-0.001336959	0.707213305	0.70699795	-0.007446325	0.436423998	0.000731367	0
683	228436058	0.001208317	-0.00133129	0.707212393	0.706998868	-0.005492764	0.45464341	-0.001891881	0
684	228452725	0.00121536	-0.001321394	0.707216794	0.706994472	-0.012486214	0.450513261	0.009765463	0
685	228469392	0.001217464	-0.001328499	0.70721047	0.70700078	0.003486946	0.445814446	0.00019635	0
686	228486059	0.001223987	-0.001333326	0.70721088	0.70700035	-0.008336137	0.446254209	-0.006106175	0
687	228502726	0.001223118	-0.001337584	0.707210936	0.707000288	-0.012556811	0.463005586	0.000594567	0
688	228519393	0.001226552	-0.001336032	0.707213569	0.706997651	-0.002694788	0.445540926	-0.007932032	0
689	228536060	0.001239236	-0.00133875	0.707211237	0.706999956	-0.002621849	0.428910522	-0.005214099	0
690	228552727	0.001236439	-0.00133327	0.70721103	0.707000178	0.008485631	0.451281005	-0.007431464	0
691	228569394	0.001239089	-0.001335824	0.707207817	0.707003383	-0.001122178	0.443900073	0.01074403	0
692	228586061	0.001239268	-0.001340117	0.707204757	0.707006436	-0.011689722	0.453780404	-0.011372631	0
693	228602728	0.001240329	-0.001344729	0.707201389	0.707009794	-0.011454635	0.436958951	0.009931247	0
694	228619395	0.001230288	-0.001352449	0.707203511	0.707007674	0.001924643	0.420265044	0.009087149	0
695	228636062	0.001230767	-0.001352259	0.707200933	0.707010252	-0.008568661	0.443588626	0.003401402	0
696	228652729	0.001231025	-0.001350112	0.707194312	0.707016879	-0.001543826	0.424879133	0.007118913	0
697	228669396	0.001230106	-0.001361376	0.707195521	0.707015649	-0.001458685	0.44546222	4.61E-05	0
698	228686063	0.001230404	-0.001362449	0.707192953	0.707018216	-0.007833062	0.436892475	-0.016510222	0
699	228702730	0.001218413	-0.00136515	0.707197006	0.707014177	-0.017281521	0.447731262	0.001908121	0
700	228719397	0.001217773	-0.001357949	0.707191426	0.707019774	-0.003790387	0.450737034	0.004738973	0
701	228736064	0.001205815	-0.001358704	0.707191329	0.707019889	-0.018095234	0.424563746	0.000457013	0
702	228752731	0.001192574	-0.001347477	0.707189198	0.707022065	0.005519872	0.446814895	7.21E-05	0
703	228769398	0.001203625	-0.00134785	0.707191831	0.707019412	-0.014309347	0.446819727	0.002570902	0
704	228786065	0.001198366	-0.001355343	0.707192644	0.707018593	0.004831666	0.451547974	-7.55E-05	0
705	228802732	0.001200099	-0.001357528	0.707194673	0.707016557	0.005690375	0.443600483	0.004593659	0
706	228819399	0.001203267	-0.001361445	0.707193994	0.707017223	0.001526741	0.428704417	-0.001340635	0
707	228836066	0.001204943	-0.001365462	0.707200972	0.707010232	-0.006191602	0.438366654	0.000193943	0
708	228852733	0.001212545	-0.001362051	0.707199691	0.707011507	0.000156896	0.434172716	-0.002742007	0
709	228869400	0.00121182	-0.00136784	0.707195698	0.707015491	-0.002754467	0.437605572	0.004634585	0
710	228886067	0.001212651	-0.001369657	0.707194611	0.707016574	-0.002240986	0.455246926	0.002800338	0
711	228902734	0.001216447	-0.001378507	0.707199845	0.707011315	-0.00967224	0.436930274	0.003207856	0
712	228919401	0.001212609	-0.001373076	0.707198521	0.707012657	0.000774819	0.414522402	-0.008513442	0
713	228936068	0.001206444	-0.00137628	0.707203993	0.707007187	-0.01196301	0.402285717	-0.010290678	0
714	228952735	0.001211231	-0.001380637	0.707208528	0.707002634	-0.005214631	0.448356481	0.004426935	0
715	228969402	0.001203391	-0.001375048	0.707206803	0.707004384	-0.009289808	0.448973085	-0.004824183	0
716	228986069	0.001206676	-0.001383587	0.707205005	0.70700616	-0.0072668	0.438097328	-0.001914273	0
717	229002736	0.001203163	-0.001388751	0.707200739	0.707010423	-0.015831956	0.438387669	-0.000216616	0
718	229019403	0.001201414	-0.001394106	0.707200053	0.707011101	-0.010589573	0.445728845	-0.00374035	0
719	229036070	0.00130276	-0.001232548	0.707229953	0.706981314	-0.005870778	0.424844466	0.00900151	0
720	229052737	0.0013099	-0.001238284	0.707234025	0.706977217	0.000490484	0.452233457	-0.007896232	0
721	229069404	0.001308134	-0.001228718	0.707237163	0.706974098	-0.011192752	0.451705806	-0.023094407	0
722	229086071	0.001310463	-0.001224887	0.707240501	0.70697076	0.001296075	0.435699912	-0.004812544	0
723	229102738	0.001314593	-0.001225785	0.707239308	0.706971945	-0.000443784	0.433639813	0.002103774	0
724	229119405	0.001319184	-0.001227336	0.70723744	0.706973802	0.002831431	0.427518084	0.003421043	0
725	229136072	0.001327043	-0.001227709	0.707235886	0.706975342	-0.005479546	0.436831738	-0.009542265	0
726	229152739	0.001334769	-0.001226942	0.707241452	0.70696976	-0.01405897	0.444510191	0.000688297	0
727	229169406	0.001340184	-0.00122509	0.70724022	0.706970986	0.000707833	0.440703837	-0.008527166	0
728	229186073	0.001329684	-0.001224734	0.707241538	0.706969687	-0.001413879	0.425034637	-0.013032955	0
729	229202740	0.001328248	-0.001228445	0.70724459	0.70696663	-0.001974822	0.450911711	-0.002472294	0
730	229219407	0.001333357	-0.001223281	0.707248513	0.706962705	-0.001257603	0.438202829	0.00252934	0
731	229236074	0.001326796	-0.001222784	0.707251493	0.706959737	-0.00497057	0.45757172	0.001508931	0
732	229252741	0.001326493	-0.001223372	0.707250692	0.706960538	-0.005186415	0.438294053	-0.000604914	0
733	229269408	0.001321551	-0.001215434	0.707246945	0.70696431	-0.000749242	0.430999099	-0.00255727	0
734	229286075	0.001320581	-0.0012127	0.707251382	0.706959877	0.005821276	0.446604143	-0.005089677	0
735	229302742	0.001310727	-0.001207653	0.70725267	0.706958615	0.013614145	0.448032118	0.0032124	0
